Folder: Tauc-Urbach_Extractor

Note: FitRange.txt
TaucDir_index1: 559
TaucDir_index2: 622
TaucIndir_index1: 235
TaucIndir_index2: 450
Urbach_index1: 80
Urbach_index2: 298

Note: README.md
# Installation and Running Instructions

Follow these steps to install and run the program:

## Step 1: Download Files
- Download all the files from the repository to your local machine.

## Step 2: Unzip Library
- Unzip the `lib.zip` file in the same folder where you have downloaded the program files. (Please ensure that lib.z01 to lib.z07 files are all existed in the same folder)

After completing these steps, you should be ready to run the program.

File: tesSpeciment_T_SnO_Ar5.8sccm.csv
Wavelength [nm],Transmittance [%]
900,37.1453
897,37.1095
894,37.0557
891,36.9914
888,36.9205
885,36.8476
882,36.7678
879,36.6837
876,36.5941
873,36.4965
870,36.3927
867,36.281
864,36.1627
861,36.0393
858,35.9091
855,35.7551
852,35.5668
849,35.3633
846,35.152
843,34.9529
840,34.763
837,34.5632
834,34.3554
831,34.1387
828,33.9127
825,33.6801
822,33.4386
819,33.1897
816,32.9335
813,32.6719
810,32.3998
807,32.1227
804,31.8389
801,31.5425
798,31.2415
795,30.93
792,30.6144
789,30.2913
786,29.9626
783,29.6238
780,29.2786
777,28.9296
774,28.5712
771,28.211
768,27.8422
765,27.4695
762,27.0927
759,26.7107
756,26.3251
753,25.9351
750,25.5421
747,25.1479
744,24.7498
741,24.3488
738,23.9462
735,23.5416
732,23.1362
729,22.7267
726,22.3155
723,21.9028
720,21.4908
717,21.0797
714,20.6702
711,20.2609
708,19.8523
705,19.4465
702,19.0441
699,18.6449
696,18.247
693,17.8519
690,17.4576
687,17.0655
684,16.6754
681,16.2871
678,15.9025
675,15.5223
672,15.1474
669,14.776
666,14.4095
663,14.0472
660,13.6894
657,13.3374
654,12.9891
651,12.6463
648,12.3083
645,11.9739
642,11.6453
639,11.3218
636,11.0034
633,10.6891
630,10.3796
627,10.0745
624,9.77449
621,9.48018
618,9.19072
615,8.90684
612,8.62841
609,8.35509
606,8.08736
603,7.82475
600,7.56709
597,7.31434
594,7.06617
591,6.82309
588,6.58554
585,6.35264
582,6.12437
579,5.90063
576,5.68123
573,5.46637
570,5.25634
567,5.05101
564,4.85067
561,4.65566
558,4.46518
555,4.27938
552,4.09834
549,3.92112
546,3.74923
543,3.58147
540,3.41843
537,3.26033
534,3.10673
531,2.95796
528,2.81379
525,2.67404
522,2.53845
519,2.40767
516,2.28136
513,2.15962
510,2.04299
507,1.93102
504,1.82374
501,1.7211
498,1.62267
495,1.52863
492,1.43915
489,1.35387
486,1.27287
483,1.19585
480,1.12285
477,1.0538
474,0.988441
471,0.9269
468,0.8689
465,0.814348
462,0.763018
459,0.715001
456,0.670084
453,0.62808
450,0.588995
447,0.552288
444,0.518037
441,0.48614
438,0.45642
435,0.428664
432,0.403096
429,0.379013
426,0.356527
423,0.335695
420,0.316016
417,0.29795
414,0.281183
411,0.265475
408,0.250804
405,0.237005
402,0.223625
399,0.211221
396,0.199539
393,0.188433
390,0.178094
387,0.168082
384,0.158587
381,0.149536
378,0.141158
375,0.133203
372,0.125925
369,0.118848
366,0.112079
363,0.105057
360,0.0982758
357,0.0917817
354,0.0856103
351,0.0798388
348,0.0743919
345,0.0694142
342,0.0649492
339,0.0607528
336,0.0567286
333,0.0526368
330,0.0485564
327,0.0448349
324,0.0411973
321,0.0379785
318,0.0349278
315,0.0321785
312,0.0296986
309,0.027427
306,0.0253208
303,0.0235117
300,0.0217121
297,0.0203685
294,0.0192201
291,0.0182625
288,0.01741
285,0.0165909
282,0.0160445
279,0.0156242
276,0.0153773
273,0.0152426
270,0.0150822
267,0.0148979
264,0.0150099
261,0.0155371
258,0.0165221
255,0.0184055
252,0.0219243
250,0.0264392